{
    "resourceType": "Bundle",
    "type": "transaction",
    "entry": [ {
        "resource": {"resourceType":"Patient","id":"P1","meta":{"tag":[{"system":"http://fhir.ona.io","code":"000003","display":"G6PD Patient"}]},"extension":[{"url":"http://hl7.org/fhir/us/core/StructureDefinition/us-core-ethnicity","valueCoding":{"code":"black","display":"Black"}},{"url":"http://hl7.org.nz/fhir/StructureDefinition/current-occupation","valueCoding":{"code":"employed","display":"Employed"}}],"identifier":[{"value":"3456"}],"active":true,"name":[{"family":"Hadi","given":["Bareera"]}],"telecom":[{"system":"phone","value":"4688755"}],"gender":"female","birthDate":"1998-12-14","address":[{"use":"home","type":"physical","city":"NAIROBI","country":"Kenya"}],"maritalStatus":{"coding":[{"code":"married","display":"Married"}]},"managingOrganization":{"reference":"Organization/105"}}
    }, {
        "resource": {"resourceType":"Encounter","id":"E1","status":"finished","class":{"system":"http://terminology.hl7.org/CodeSystem/v3-ActCode","code":"AMB"},"serviceType":{"coding":[{"system":"http://terminology.hl7.org/CodeSystem/service-type","code":"581"}]},"subject":{"reference":"Patient/P1"}}
    }, {
        "resource":  {"resourceType":"Condition","id":"b51da245-9340-4aa6-ab2f-aa5e1d3fd13d","clinicalStatus":{"coding":[{"system":"http://terminology.hl7.org/CodeSystem/condition-clinical","code":"active"}]},"verificationStatus":{"coding":[{"system":"http://hl7.org/fhir/ValueSet/condition-ver-status","code":"confirmed"}]},"category":[{"coding":[{"system":"http://snomed.info/sct","code":"9024005","display":"G6PD Status"}]}],"code":{"coding":[{"system":"http://snomed.info/sct","code":"260372006","display":"Deficient"}]},"subject":{"reference":"Patient/P1"},"encounter":{"reference":"Encounter/E1"},"onsetDateTime":"#NOW","recordedDate":"#NOW"}
    },{
        "resource": {"resourceType":"Observation","id":"#a50c9a7b-9220-4c13-9859-9ba83e539436","status":"registered","category":[{"coding":[{"system":"http://terminology.hl7.org/CodeSystem/observation-category","code":"laboratory"}]}],"code":{"coding":[{"system":"http://fhir.ona.io","code":"000001"}],"text":"G6PD Result Type"},"subject":{"reference":"Patient/P1"},"encounter":{"reference":"Encounter/E1"},"effectivePeriod":{"start":"2021-12-14T11:47:33+05:00","end":"2021-12-14T11:47:33+05:00"},"valueCodeableConcept":{"coding":[{"system":"https://www.snomed.org","code":"410680006","display":"Number"}]}}
    }, {
        "resource": {"resourceType":"Observation","id":"#1befd1ce-6d8b-4611-a171-f3fe503e369b","status":"registered","category":[{"coding":[{"system":"http://terminology.hl7.org/CodeSystem/observation-category","code":"laboratory"}]}],"code":{"coding":[{"system":"http://snomed.info/sct","code":"86859003"}],"text":"G6PD"},"subject":{"reference":"Patient/P1"},"encounter":{"reference":"Encounter/E1"},"effectivePeriod":{"start":"2021-12-14T11:47:33+05:00","end":"2021-12-14T11:47:33+05:00"},"valueQuantity":{"value":4.0,"unit":"U/g Hb","system":"http://unitsofmeasure.org","code":"U/g Hb"}}
    }, {
        "resource": {"resourceType":"Observation","id":"#35517341-a08c-4021-9c1f-d4daa827641e","status":"registered","category":[{"coding":[{"system":"http://terminology.hl7.org/CodeSystem/observation-category","code":"laboratory"}]}],"code":{"coding":[{"system":"http://snomed.info/sct","code":"259695003"}],"text":"Haemoglobin"},"subject":{"reference":"Patient/P1"},"encounter":{"reference":"Encounter/E1"},"effectivePeriod":{"start":"2021-12-14T11:47:33+05:00","end":"2021-12-14T11:47:33+05:00"},"valueQuantity":{"value":9.0,"unit":"g/dL","system":"http://unitsofmeasure.org","code":"g/dL"}}
    }]
}