{
  "resourceType": "CarePlan",
  "contained": [
    {
      "resourceType": "Condition",
      "id": "p1",
      "clinicalStatus": {
        "coding": [
          {
            "system": "http://terminology.hl7.org/CodeSystem/condition-clinical",
            "code": "active"
          }
        ]
      },
      "verificationStatus": {
        "coding": [
          {
            "system": "http://terminology.hl7.org/CodeSystem/condition-ver-status",
            "code": "confirmed"
          }
        ]
      },
      "code": {
        "text": "pregnancy"
      },
      "subject": {
        "reference": "Patient/exmaple",
        "display": "Charity ANC"
      }
    },
    {
      "resourceType": "Practitioner",
      "id": "pr1",
      "name": [
        {
          "family": "Midwife",
          "given": [
            "Amina"
          ]
        }
      ]
    },
    {
      "resourceType": "Practitioner",
      "id": "pr2",
      "name": [
        {
          "family": "Nurse",
          "given": [
            "Jane"
          ]
        }
      ]
    },
    {
      "resourceType": "CareTeam",
      "id": "careteam",
      "participant": [
        {
          "role": [
            {
              "coding": [
                {
                  "system": "http://example.org/mysys",
                  "code": "lmc"
                }
              ],
              "text": "Midwife"
            }
          ],
          "member": {
            "reference": "#pr1",
            "display": "Midwife Amina"
          }
        },
        {
          "role": [
            {
              "coding": [
                {
                  "system": "http://example.org/mysys",
                  "code": "obs"
                }
              ],
              "text": "Obstretitian"
            }
          ],
          "member": {
            "reference": "#pr2",
            "display": "Oscar Obstetrician"
          }
        }
      ]
    },
    {
      "resourceType": "Goal",
      "id": "goal",
      "lifecycleStatus": "active",
      "description": {
        "text": "Maintain patient's health throughout pregnancy and ensure a healthy child"
      },
      "subject": {
        "reference": "Patient/2078803",
        "display": "Eve Everywoman"
      }
    }
  ],
  "extension": [
    {
      "url": "http://example.org/fhir/StructureDefinition/careplan#lmp",
      "valueDateTime": "2021-02-09"
    }
  ],
  "status": "active",
  "intent": "plan",
  "subject": {
    "reference": "Patient/2078803",
    "display": "Eve Everywoman"
  },
  "period": {
    "start": "2021-02-09",
    "end": "2021-02-09"
  },
  "careTeam": [
    {
      "reference": "#careteam"
    }
  ],
  "addresses": [
    {
      "reference": "#p1",
      "display": "pregnancy"
    }
  ],
  "goal": [
    {
      "reference": "#goal"
    }
  ],
  "activity": [
    {
      "reference": {
        "display": "Prenatal vitamin MedicationRequest"
      }
    },
    {
      "extension": [
        {
          "url": "http://example.org/fhir/StructureDefinition/careplan#andetails",
          "valueUri": "http://orionhealth.com/fhir/careplan/1andetails"
        }
      ],
      "detail": {
        "kind": "Appointment",
        "code": {
          "coding": [
            {
              "system": "http://example.org/mySystem",
              "code": "1an"
            }
          ],
          "text": "First Antenatal encounter"
        },
        "status": "scheduled",
        "doNotPerform": false,
        "scheduledTiming": {
          "repeat": {
            "boundsPeriod": {
              "start": "2021-02-09",
              "end": "2021-02-09"
            }
          }
        },
        "performer": [
          {
            "reference": "#pr1",
            "display": "Mavis Midwife"
          }
        ],
        "description": "The first antenatal encounter. This is where a detailed physical examination is performed.             and the pregnanacy discussed with the mother-to-be."
      }
    },
    {
      "detail": {
        "kind": "Appointment",
        "code": {
          "coding": [
            {
              "system": "http://example.org/mySystem",
              "code": "an"
            }
          ],
          "text": "Follow-up Antenatal encounter"
        },
        "status": "not-started",
        "doNotPerform": false,
        "scheduledTiming": {
          "repeat": {
            "boundsPeriod": {
              "start": "2021-02-09",
              "end": "2021-02-09"
            }
          }
        },
        "performer": [
          {
            "reference": "#pr1",
            "display": "Mavis Midwife"
          }
        ],
        "description": "The second antenatal encounter. Discuss any issues that arose from the first antenatal encounter"
      }
    },
    {
      "detail": {
        "kind": "Appointment",
        "code": {
          "coding": [
            {
              "system": "http://example.org/mySystem",
              "code": "del"
            }
          ],
          "text": "Delivery"
        },
        "status": "not-started",
        "doNotPerform": false,
        "scheduledTiming": {
          "repeat": {
            "boundsPeriod": {
              "start": "2021-02-09",
              "end": "2021-02-09"
            }
          }
        },
        "performer": [
          {
            "reference": "#pr1",
            "display": "Mavis Midwife"
          }
        ],
        "description": "The delivery."
      }
    }
  ]
}