{
  "resourceType": "Bundle",
  "id": "c8d44022-6a03-430b-8a9a-c27506a9fe56",
  "meta": {
    "lastUpdated": "2022-02-08T17:03:42.434+05:00"
  },
  "type": "searchset",
  "total": 1,
  "link": [
    {
      "relation": "self",
      "url": "http://localhost:8080/fhir/practitioner-details?keycloak-uuid=de9ad01f-c485-4da4-9a81-284518e103c1"
    }
  ],
  "entry": [
    {
      "fullUrl": "http://localhost:8080/fhir/practitioner-details/de9ad01f-c485-4da4-9a81-284518e103c1",
      "resource": {
        "resourceType": "practitioner-details",
        "id": "de9ad01f-c485-4da4-9a81-284518e103c1",
        "meta": {
          "profile": [
            "http://hl7.org/fhir/profiles/custom-resource"
          ]
        },
        "KeycloakUserDetails": {
          "id": "de9ad01f-c485-4da4-9a81-284518e103c1",
          "user-bio": [
            {
              "identifier": "de9ad01f-c485-4da4-9a81-284518e103c1",
              "userName": "practitionera",
              "preferredName": "practitionera",
              "familyName": "Tester",
              "givenName": "Practitioner A",
              "emailVerified": "false"
            }
          ],
          "user-roles": [
            "ROLE_offline_access",
            "ROLE_default-roles-fhir-core",
            "ROLE_uma_authorization"
          ]
        },
        "fhir": {
          "id": "152",
          "careteams": [
            {
              "resourceType": "CareTeam",
              "id": "208",
              "meta": {
                "versionId": "1",
                "lastUpdated": "2021-12-23T20:22:25.335+05:00",
                "source": "#67aCvwkaE7B37IZf"
              },
              "identifier": [
                {
                  "use": "official",
                  "value": "a2788d06-fdad-4a74-90ac-3ac4e243eee5"
                }
              ],
              "status": "active",
              "name": "Care team test",
              "subject": {
                "reference": "Group/206",
                "display": "Demo FHIR Groups"
              },
              "participant": [
                {
                  "member": {
                    "reference": "Practitioner/152",
                    "display": "Practitioner A Tester"
                  }
                }
              ]
            }
          ],
          "teams": [
            {
              "resourceType": "Organization",
              "id": "202",
              "meta": {
                "versionId": "1",
                "lastUpdated": "2021-12-23T20:11:43.789+05:00",
                "source": "#JnVDNQcKeXLllwrN"
              },
              "identifier": [
                {
                  "use": "official",
                  "value": "26a37c67-6e91-4457-b8e2-a23b4a52198b"
                }
              ],
              "active": true,
              "name": "Test Team"
            }
          ],
          "locations": [
            {
              "resourceType": "Location",
              "id": "53",
              "meta": {
                "versionId": "1",
                "lastUpdated": "2021-10-26T17:22:31.920+05:00",
                "source": "#DjDPQjLcLwi7XJEi"
              },
              "identifier": [
                {
                  "use": "official",
                  "value": "1815f774-c85b-4bb1-825d-f6af11753d08"
                }
              ],
              "status": "active",
              "name": "MOH LOCATION",
              "alias": [
                "MOH LOCATION"
              ],
              "description": "MOH LOCATION",
              "physicalType": {
                "coding": [
                  {
                    "system": "http://terminology.hl7.org/CodeSystem/location-physical-type",
                    "code": "jdn",
                    "display": "Jurisdiction"
                  }
                ]
              },
              "partOf": {
                "reference": "Location/52",
                "display": "MOH LOCATION"
              }
            }
          ],
          "locationHierarchyList": [
            {
              "resourceType": "LocationHierarchy",
              "id": "Location Resource : 53",
              "meta": {
                "profile": [
                  "http://hl7.org/fhir/profiles/custom-resource"
                ]
              },
              "LocationHierarchyTree": {
                "locationsHierarchy": {
                  "listOfNodes": {
                    "treeNodeId": "Location/53",
                    "treeNode": [
                      {
                        "nodeId": "Location/53",
                        "label": "MOH LOCATION",
                        "node": {
                          "resourceType": "Location",
                          "id": "53",
                          "meta": {
                            "versionId": "1",
                            "lastUpdated": "2021-10-26T17:22:31.920+05:00",
                            "source": "#DjDPQjLcLwi7XJEi"
                          },
                          "identifier": [
                            {
                              "use": "official",
                              "value": "1815f774-c85b-4bb1-825d-f6af11753d08"
                            }
                          ],
                          "status": "active",
                          "name": "MOH LOCATION",
                          "alias": [
                            "MOH LOCATION"
                          ],
                          "description": "MOH LOCATION",
                          "physicalType": {
                            "coding": [
                              {
                                "system": "http://terminology.hl7.org/CodeSystem/location-physical-type",
                                "code": "jdn",
                                "display": "Jurisdiction"
                              }
                            ]
                          },
                          "partOf": {
                            "reference": "Location/52",
                            "display": "MOH LOCATION"
                          }
                        },
                        "parent": "Location/52",
                        "children": [
                          {
                            "childId": "Location/54",
                            "treeNode": {
                              "nodeId": "Location/54",
                              "label": "MOH LOCATION A",
                              "node": {
                                "resourceType": "Location",
                                "id": "54",
                                "meta": {
                                  "versionId": "1",
                                  "lastUpdated": "2021-10-26T17:27:13.123+05:00",
                                  "source": "#VOXtERDYSQ8Uderw"
                                },
                                "identifier": [
                                  {
                                    "use": "official",
                                    "value": "11815f774-c85b-4bb1-825d-f6af11753d08"
                                  }
                                ],
                                "status": "active",
                                "name": "MOH LOCATION A",
                                "alias": [
                                  "MOH LOCATION A"
                                ],
                                "description": "MOH LOCATION A",
                                "physicalType": {
                                  "coding": [
                                    {
                                      "system": "http://terminology.hl7.org/CodeSystem/location-physical-type",
                                      "code": "jdn",
                                      "display": "Jurisdiction"
                                    }
                                  ]
                                },
                                "partOf": {
                                  "reference": "Location/53",
                                  "display": "MOH LOCATION A"
                                }
                              },
                              "parent": "Location/53",
                              "children": [
                                {
                                  "childId": "Location/56",
                                  "treeNode": {
                                    "nodeId": "Location/56",
                                    "label": "MOH SUB LOCATION A",
                                    "node": {
                                      "resourceType": "Location",
                                      "id": "56",
                                      "meta": {
                                        "versionId": "1",
                                        "lastUpdated": "2021-10-26T17:31:40.281+05:00",
                                        "source": "#1H0BbzEsy5sxLORq"
                                      },
                                      "identifier": [
                                        {
                                          "use": "official",
                                          "value": "31815f774-c85b-4bb1-825d-f6af11753d08"
                                        }
                                      ],
                                      "status": "active",
                                      "name": "MOH SUB LOCATION A",
                                      "alias": [
                                        "MOH SUB LOCATION A"
                                      ],
                                      "description": "MOH SUB LOCATION A",
                                      "physicalType": {
                                        "coding": [
                                          {
                                            "system": "http://terminology.hl7.org/CodeSystem/location-physical-type",
                                            "code": "jdn",
                                            "display": "Jurisdiction"
                                          }
                                        ]
                                      },
                                      "partOf": {
                                        "reference": "Location/54",
                                        "display": "MOH SUB LOCATION A"
                                      }
                                    },
                                    "parent": "Location/54",
                                    "children": [
                                      {
                                        "childId": "Location/103",
                                        "treeNode": {
                                          "nodeId": "Location/103",
                                          "label": "MOH SUB SUB LOCATION A 576",
                                          "node": {
                                            "resourceType": "Location",
                                            "id": "103",
                                            "meta": {
                                              "versionId": "1",
                                              "lastUpdated": "2021-11-01T15:38:36.308+05:00",
                                              "source": "#rnsIaXrtIZx3gqYv"
                                            },
                                            "identifier": [
                                              {
                                                "use": "official",
                                                "value": "61815f774-c85b-4bb1-825d-f6af11753d08"
                                              }
                                            ],
                                            "status": "active",
                                            "name": "MOH SUB SUB LOCATION A 576",
                                            "alias": [
                                              "MOH SUB SUB LOCATION A"
                                            ],
                                            "description": "MOH SUB SUB LOCATION A",
                                            "physicalType": {
                                              "coding": [
                                                {
                                                  "system": "http://terminology.hl7.org/CodeSystem/location-physical-type",
                                                  "code": "jdn",
                                                  "display": "Jurisdiction"
                                                }
                                              ]
                                            },
                                            "partOf": {
                                              "reference": "Location/56",
                                              "display": "MOH SUB SUB LOCATION A"
                                            }
                                          },
                                          "parent": "Location/56"
                                        }
                                      },
                                      {
                                        "childId": "Location/104",
                                        "treeNode": {
                                          "nodeId": "Location/104",
                                          "label": "MOH SUB SUB LOCATION A2 576",
                                          "node": {
                                            "resourceType": "Location",
                                            "id": "104",
                                            "meta": {
                                              "versionId": "1",
                                              "lastUpdated": "2021-11-01T15:43:46.797+05:00",
                                              "source": "#Px2mwp7dsHSU2NW8"
                                            },
                                            "identifier": [
                                              {
                                                "use": "official",
                                                "value": "71815f774-c85b-4bb1-825d-f6af11753d08"
                                              }
                                            ],
                                            "status": "active",
                                            "name": "MOH SUB SUB LOCATION A2 576",
                                            "alias": [
                                              "MOH SUB SUB LOCATION A2"
                                            ],
                                            "description": "MOH SUB SUB LOCATION A2",
                                            "physicalType": {
                                              "coding": [
                                                {
                                                  "system": "http://terminology.hl7.org/CodeSystem/location-physical-type",
                                                  "code": "jdn",
                                                  "display": "Jurisdiction"
                                                }
                                              ]
                                            },
                                            "partOf": {
                                              "reference": "Location/56",
                                              "display": "MOH SUB SUB LOCATION A2"
                                            }
                                          },
                                          "parent": "Location/56"
                                        }
                                      }
                                    ]
                                  }
                                },
                                {
                                  "childId": "Location/105",
                                  "treeNode": {
                                    "nodeId": "Location/105",
                                    "label": "MOH SUB LOCATION A2",
                                    "node": {
                                      "resourceType": "Location",
                                      "id": "105",
                                      "meta": {
                                        "versionId": "1",
                                        "lastUpdated": "2021-11-01T15:45:22.527+05:00",
                                        "source": "#mIYatqaJ12D8WhCg"
                                      },
                                      "identifier": [
                                        {
                                          "use": "official",
                                          "value": "131815f774-c85b-4bb1-825d-f6af11753d08"
                                        }
                                      ],
                                      "status": "active",
                                      "name": "MOH SUB LOCATION A2",
                                      "alias": [
                                        "MOH SUB LOCATION A2"
                                      ],
                                      "description": "MOH SUB LOCATION A2",
                                      "physicalType": {
                                        "coding": [
                                          {
                                            "system": "http://terminology.hl7.org/CodeSystem/location-physical-type",
                                            "code": "jdn",
                                            "display": "Jurisdiction"
                                          }
                                        ]
                                      },
                                      "partOf": {
                                        "reference": "Location/54",
                                        "display": "MOH SUB LOCATION A2"
                                      }
                                    },
                                    "parent": "Location/54",
                                    "children": [
                                      {
                                        "childId": "Location/106",
                                        "treeNode": {
                                          "nodeId": "Location/106",
                                          "label": "105 sub loc",
                                          "node": {
                                            "resourceType": "Location",
                                            "id": "106",
                                            "meta": {
                                              "versionId": "1",
                                              "lastUpdated": "2021-11-01T15:46:06.234+05:00",
                                              "source": "#GLCR9UZXpvhGFOhj"
                                            },
                                            "identifier": [
                                              {
                                                "use": "official",
                                                "value": "171815f774-c85b-4bb1-825d-f6af11753d08"
                                              }
                                            ],
                                            "status": "active",
                                            "name": "105 sub loc",
                                            "alias": [
                                              "105 sub loc"
                                            ],
                                            "description": "105 sub loc",
                                            "physicalType": {
                                              "coding": [
                                                {
                                                  "system": "http://terminology.hl7.org/CodeSystem/location-physical-type",
                                                  "code": "jdn",
                                                  "display": "Jurisdiction"
                                                }
                                              ]
                                            },
                                            "partOf": {
                                              "reference": "Location/105",
                                              "display": "105 sub loc"
                                            }
                                          },
                                          "parent": "Location/105"
                                        }
                                      }
                                    ]
                                  }
                                }
                              ]
                            }
                          },
                          {
                            "childId": "Location/55",
                            "treeNode": {
                              "nodeId": "Location/55",
                              "label": "MOH LOCATION B",
                              "node": {
                                "resourceType": "Location",
                                "id": "55",
                                "meta": {
                                  "versionId": "1",
                                  "lastUpdated": "2021-10-26T17:27:18.601+05:00",
                                  "source": "#l5GFpmt8940pQMuP"
                                },
                                "identifier": [
                                  {
                                    "use": "official",
                                    "value": "21815f774-c85b-4bb1-825d-f6af11753d08"
                                  }
                                ],
                                "status": "active",
                                "name": "MOH LOCATION B",
                                "alias": [
                                  "MOH LOCATION B"
                                ],
                                "description": "MOH LOCATION B",
                                "physicalType": {
                                  "coding": [
                                    {
                                      "system": "http://terminology.hl7.org/CodeSystem/location-physical-type",
                                      "code": "jdn",
                                      "display": "Jurisdiction"
                                    }
                                  ]
                                },
                                "partOf": {
                                  "reference": "Location/53",
                                  "display": "MOH LOCATION B"
                                }
                              },
                              "parent": "Location/53",
                              "children": [
                                {
                                  "childId": "Location/57",
                                  "treeNode": {
                                    "nodeId": "Location/57",
                                    "label": "MOH SUB LOCATION B",
                                    "node": {
                                      "resourceType": "Location",
                                      "id": "57",
                                      "meta": {
                                        "versionId": "1",
                                        "lastUpdated": "2021-10-26T17:31:49.553+05:00",
                                        "source": "#rE7hvl7dXtLX9bwC"
                                      },
                                      "identifier": [
                                        {
                                          "use": "official",
                                          "value": "41815f774-c85b-4bb1-825d-f6af11753d08"
                                        }
                                      ],
                                      "status": "active",
                                      "name": "MOH SUB LOCATION B",
                                      "alias": [
                                        "MOH SUB LOCATION B"
                                      ],
                                      "description": "MOH SUB LOCATION B",
                                      "physicalType": {
                                        "coding": [
                                          {
                                            "system": "http://terminology.hl7.org/CodeSystem/location-physical-type",
                                            "code": "jdn",
                                            "display": "Jurisdiction"
                                          }
                                        ]
                                      },
                                      "partOf": {
                                        "reference": "Location/55",
                                        "display": "MOH SUB LOCATION B"
                                      }
                                    },
                                    "parent": "Location/55",
                                    "children": [
                                      {
                                        "childId": "Location/102",
                                        "treeNode": {
                                          "nodeId": "Location/102",
                                          "label": "MOH SUB SUB LOCATION B 577",
                                          "node": {
                                            "resourceType": "Location",
                                            "id": "102",
                                            "meta": {
                                              "versionId": "1",
                                              "lastUpdated": "2021-11-01T15:37:42.517+05:00",
                                              "source": "#IAdRmL0t29wpNHUK"
                                            },
                                            "identifier": [
                                              {
                                                "use": "official",
                                                "value": "51815f774-c85b-4bb1-825d-f6af11753d08"
                                              }
                                            ],
                                            "status": "active",
                                            "name": "MOH SUB SUB LOCATION B 577",
                                            "alias": [
                                              "MOH SUB SUB LOCATION B"
                                            ],
                                            "description": "MOH SUB SUB LOCATION B",
                                            "physicalType": {
                                              "coding": [
                                                {
                                                  "system": "http://terminology.hl7.org/CodeSystem/location-physical-type",
                                                  "code": "jdn",
                                                  "display": "Jurisdiction"
                                                }
                                              ]
                                            },
                                            "partOf": {
                                              "reference": "Location/57",
                                              "display": "MOH SUB SUB LOCATION B"
                                            }
                                          },
                                          "parent": "Location/57"
                                        }
                                      }
                                    ]
                                  }
                                }
                              ]
                            }
                          }
                        ]
                      }
                    ]
                  },
                  "parentChildren": [
                    {
                      "identifier": "Location/52",
                      "childIdentifiers": [
                        "Location/53"
                      ]
                    },
                    {
                      "identifier": "Location/53",
                      "childIdentifiers": [
                        "Location/54",
                        "Location/55"
                      ]
                    },
                    {
                      "identifier": "Location/54",
                      "childIdentifiers": [
                        "Location/56",
                        "Location/105"
                      ]
                    },
                    {
                      "identifier": "Location/56",
                      "childIdentifiers": [
                        "Location/103",
                        "Location/104"
                      ]
                    },
                    {
                      "identifier": "Location/105",
                      "childIdentifiers": [
                        "Location/106"
                      ]
                    },
                    {
                      "identifier": "Location/55",
                      "childIdentifiers": [
                        "Location/57"
                      ]
                    },
                    {
                      "identifier": "Location/57",
                      "childIdentifiers": [
                        "Location/102"
                      ]
                    }
                  ]
                }
              },
              "locationId": "53"
            }
          ],
          "practitionerId": [
            "152"
          ]
        }
      }
    }
  ]
}